"Identifier" "Activity" "Feature_Average" "Feature_Standard_Deviation" "body_acc_x_Average" "body_acc_x_Standard_Deviation" "body_acc_y_Average" "body_acc_y_Standard_Deviation" "body_acc_z_Average" "body_acc_z_Standard_Deviation" "body_gyro_x_Average" "body_gyro_x_Standard_Deviation" "body_gyro_y_Average" "body_gyro_y_Standard_Deviation" "body_gyro_z_Average" "body_gyro_z_Standard_Deviation" "total_acc_x_Average" "total_acc_x_Standard_Deviation" "total_acc_y_Average" "total_acc_y_Standard_Deviation" "total_acc_z_Average" "total_acc_z_Standard_Deviation"
1 1 -0.319105810200331 0.452722654264638 -5.04911990559208e-05 0.234133338780874 -0.000128854135947368 0.192116753389082 -0.000938320109560033 0.136100278562349 -0.014599858215148 0.460148204398441 0.00217139307711349 0.725724933538022 -0.00061430490753125 0.319697711403702 0.997061180921053 0.233861527742345 -0.263882523646155 0.191816890451813 -0.0733891163883255 0.134023290420627
1 2 -0.40699661814598 0.484862873610122 -0.00455728508969634 0.211075716737085 -0.00357455272079452 0.172166978248995 0.00363560725781545 0.179359824376013 0.0806764951158314 0.398028599008249 -0.041460951730513 0.770670697587944 -0.0123806836501887 0.240820734434467 0.962941935097288 0.210133677853263 -0.347215722982459 0.171065484037623 -0.0759891528358196 0.172738396075077
1 3 -0.297226292824001 0.455514566936833 0.00239312484429209 0.336079889792081 0.00378679923166454 0.167107738240112 0.000244930193343431 0.141422318310637 -0.0076353937466199 0.473650027519683 -0.00749376960210459 0.670805656547777 0.00166069456162309 0.426010424400372 0.997136499202806 0.335222988334404 -0.244431799830995 0.166002821400445 -0.0663263184201658 0.138533330819824
1 4 -0.633405230612481 0.546477904027143 -0.00336698807718783 0.0088169456999404 0.00830296874545219 0.0149526077204382 0.00124322219354089 0.0138905489270345 -0.0182292707113541 0.0215434646598802 -0.0079394077457631 0.0276759264377177 -0.0103572343574678 0.030553897435541 0.920397420977394 0.00646400176746432 0.230512473086769 0.00762917750910514 0.322026273969415 0.00854657876357304
1 5 -0.647424789141436 0.542181337789553 0.000276532436453538 0.00279620777116816 0.000524808830951651 0.00631350409967788 -0.000757860253643455 0.00666297501787722 0.0038027338948237 0.0128522266389872 0.00674630111015065 0.0114006198961243 -0.00510396859477624 0.0115637624739882 1.00285410551297 0.00240779994949359 -0.254059246948703 0.00454784762390517 0.00697522471600118 0.00470244282802395
1 6 -0.607522391836014 0.542294404739403 -0.0115358889115141 0.0247932385018487 -0.0122609074114397 0.0296083056112129 -0.00161731865601312 0.0343065220791623 0.0114704403783495 0.111817844454636 0.00444869266497344 0.0394522230181932 0.0275984349941828 0.0466008544566952 0.148162573229063 0.018890489881379 0.710454980704781 0.0254179155859209 0.430974251735484 0.0272580495080411
2 1 -0.385708093716054 0.471751410540144 -0.000236823526445975 0.188678607759782 -0.0007640919728125 0.159223036474717 0.000927358610169756 0.106385882218855 -0.0261456554122987 0.383504266451495 0.0117845148574828 0.355332679945745 -0.00154868120596663 0.25345015970436 0.981170597153072 0.188328319595238 -0.328878587927701 0.158733275151833 0.0786663049567929 0.105553809812103
2 2 -0.363983305102955 0.466703992931453 -0.00626711601526693 0.227428597731043 -0.00224174608150846 0.191017624067003 -0.0146031169508174 0.16269940599083 -0.0309573604757487 0.490001601715019 0.0190761039483724 0.410568810200016 -0.007743288215625 0.406984635848773 0.888648334407552 0.226144867715474 -0.399876286108333 0.188107185987623 -0.212631736700791 0.160406577528359
2 3 -0.259677293061387 0.465729490758389 8.15666749335119e-06 0.341385987338924 -0.00289702140073138 0.217471386768029 -0.00280964498676695 0.164368852531311 -0.0910397032603723 0.593160810128313 0.031386088491999 0.449272731386614 0.00479812537430186 0.351097151337718 0.945216230834442 0.340525652499106 -0.310210784831449 0.216260901216394 -0.0514648999197763 0.162304987785511
2 4 -0.640597914078914 0.536914141147994 -0.000100652413850713 0.00570006599370221 0.000760627952901495 0.0101547066930396 -0.000300818998898777 0.0102503102228301 -0.0183536569299141 0.0141148265038151 0.0065063506496678 0.0181485853726156 -0.0199630489963625 0.0216553942595138 1.00072676413043 0.00364126414634849 -0.0866806083192255 0.0071245124028211 0.189468410155231 0.00702011215490257
2 5 -0.636454993012462 0.536059426538189 6.91830141262442e-05 0.00555398629324167 -0.000672778292970197 0.00902714663922681 0.000792520785668692 0.0120642036221216 0.00393201028634795 0.0252118750798988 -0.0034766182422254 0.0238727618319271 0.000664936673678241 0.0192087405353638 0.970098432566551 0.00469182515035936 -0.352213310112847 0.0075230827390029 0.122773797442708 0.00848131413342389
2 6 -0.639973837827844 0.543318302012276 0.000782620459907878 0.0098467393932228 -0.000535310148371875 0.00510277494154364 0.00035083131030599 0.00586136617818346 0.00948662885829163 0.0119088920333111 -0.0169135999761123 0.0155671989615223 0.0259136753102604 0.0214119134308631 -0.0240110246144531 0.0057837440970888 0.769108206608073 0.00411191445115856 0.630486895328776 0.00497193177537168
3 1 -0.386865862874514 0.47042947054323 -0.000413872830590652 0.209240438011909 -2.02621447764008e-05 0.160619943966853 -0.00144266983757813 0.113191908681054 0.00209813659221444 0.374518140311476 -0.00161440306505657 0.33593479222256 -0.00220595817404903 0.255575367320821 0.997605530253233 0.208855638345089 -0.243620709883459 0.160044261487548 -0.142689099779429 0.111990607320487
3 2 -0.424274671811149 0.483280166456723 -0.0034530665892214 0.224586664007498 -0.00801077242356991 0.174549769913918 -0.000580482469830508 0.116367360336316 0.103003805232336 0.475384049890987 -0.0293182022684719 0.321428565807872 -0.02866763644067 0.248006907273706 0.95710298628178 0.223791894945592 -0.372323638454714 0.171696008995111 -0.166233946183615 0.112637361322145
3 3 -0.350536138554404 0.471565414517055 0.00305982842274872 0.307668643333323 -0.0011629786873023 0.166900276896801 -0.00258729414628584 0.117718719997164 -0.107155483487921 0.644656735321296 0.0272718476380166 0.34898905646207 0.0165944493262564 0.272226309778443 1.00288336409598 0.306916938375243 -0.211648083832015 0.165618896885268 -0.108696300631404 0.113682250594221
3 4 -0.622780836987975 0.535481364875035 -0.00419954746515084 0.0108374794691943 0.0071518143813936 0.0262275146747725 0.00328679500347386 0.0254857388640847 -0.0112021383501723 0.0317985432119848 -0.000407067605547776 0.0442258869068616 0.00339847371174669 0.0378227915221471 0.968779063626803 0.00938033784252548 0.152350318292488 0.0182465814187383 0.134381290148437 0.01857692866117
3 5 -0.626824657789309 0.523981202663951 0.000509173695485272 0.0122240271263694 0.00146889766758248 0.0199355988291742 0.00220862876287923 0.0189560668725099 0.00310670472657787 0.0883771289893086 0.00714678968143955 0.057290164184632 -0.00876620069872387 0.0446256040225644 0.99748475908043 0.0113600586587806 -0.281830209503074 0.0173010525390164 0.0210195001860451 0.0133558914311219
3 6 -0.641445804875381 0.53124691328834 -0.000424302075489919 0.00701450518248103 -0.000953314750890121 0.00821526860829795 0.00231474892565257 0.00955562439676781 0.00707281137663609 0.0238646286818087 0.00112362553571447 0.0194092939919658 0.0228672015564589 0.0198629384223414 0.164311857283266 0.00629753215935452 0.853079137071573 0.00692185637651388 0.477050918220766 0.00827128234334369
4 1 -0.43055661483918 0.485536384535955 0.000207368155971354 0.183094461715684 0.00120543976572526 0.159097393646937 -0.00102254446784505 0.0774329765857893 -0.00425263819567708 0.436304469595107 0.000744455540416667 0.258157629819505 -0.00255156665798958 0.165557090664548 1.01767012106771 0.182891567054605 -0.0664847311506146 0.158497239559965 0.11900994170319 0.0763835890691704
4 2 -0.415260374462441 0.482342658990012 -0.00138054912814002 0.259738018657437 -0.00778496399770733 0.161170726140763 -0.00195291145792818 0.115938777844976 0.0691595651582091 0.476784496942272 -0.0052408352585637 0.345586194162997 -0.000866329750922476 0.311686921524456 1.00353952916166 0.258730544473538 -0.222379972014313 0.158525222228117 0.0752361516597686 0.111814167246818
4 3 -0.363790441016887 0.485503779291866 0.000492442967631945 0.329958141194942 0.00384790223680556 0.135220244133688 0.000505458824418403 0.0966875520268981 -0.0775202392881701 0.550094617120377 0.00177744337545139 0.232084546764709 -0.0119804035823299 0.245027392765201 1.00645038331597 0.329112731427594 -0.0401034840629549 0.133360766413826 0.141126709542694 0.0951198784989858
4 4 -0.627074988752137 0.530636923654938 -0.00124420927322266 0.00781594562106075 0.00523206258104813 0.0204865807505306 0.000803732618706563 0.0152183364955828 -0.0224510501899384 0.0277083407852219 -0.00681333953868094 0.0338044839281327 0.00655809741564375 0.0370681579341728 0.94924790875 0.00618203882867003 0.23464342302567 0.0141956565373136 0.10349738955 0.0116428210405499
4 5 -0.618583772157932 0.530351097607765 0.000602576299563616 0.00891715495301658 0.00401202160235073 0.0253768567076598 0.00401368576647573 0.0215706226188622 -0.00306316049434152 0.080343278364273 0.00565024138079074 0.0408786066128404 -0.00476632015512165 0.0457726925076486 1.01254772522321 0.00655793475705235 -0.0537375759124581 0.0167422906366435 0.162499902231585 0.0148038141996081
4 6 -0.630875080725603 0.538918856382756 -0.00288854068113092 0.016301167906698 0.00111981931737066 0.0116905445540906 -0.000786379090290509 0.00973972723719199 0.0190214931005991 0.0251214912678451 -0.0084309319287338 0.0317826221694184 0.0369065337980098 0.020556240524842 0.0353230278877633 0.00716388228582846 0.933186772265625 0.00898748158224059 0.329320376856192 0.00842137146289777
5 1 -0.378535121986988 0.471349048704243 5.49378844977676e-05 0.230767906881349 -7.70382653041294e-05 0.185674260562418 0.000186927531498326 0.10067355651463 -0.0218822389265346 0.445046647545727 0.00240460003061942 0.381231375757818 -0.00211967320304129 0.332076740416909 1.02361758344029 0.230449981783372 -0.0823350773042439 0.184960360849111 -0.00290405617793527 0.0993089207683185
5 2 -0.356353464901252 0.471016513212762 -0.00187869311153923 0.311465544250243 -0.00807163455256981 0.204170694227251 0.000276225530490359 0.127304258375926 0.0693004434081749 0.486440689658547 -0.0193492855700133 0.430435901725321 -0.0194246224910971 0.357859979490017 0.996363551230053 0.310796968035221 -0.255623305961074 0.201296762664771 -0.028050900172624 0.122936859300435
5 3 -0.296901580091929 0.479605858322798 0.00329073173105053 0.415684561073082 0.00453025937907247 0.188068384822887 0.00263866356910572 0.124255581128416 -0.0418930660643118 0.471371736989542 0.00160677536985372 0.454328972835928 -0.00251249345378989 0.376057277704631 1.01555522849069 0.414897792128317 -0.0380953557705402 0.186450214865952 0.0184175191433178 0.121754863810194
5 4 -0.627014833570021 0.531734627480468 -0.000799927948313565 0.00760960277535887 0.00379606698153494 0.0180759774580501 -7.68573316132813e-05 0.0163168287488637 -0.0150170975953089 0.0311099815182064 -0.00415780967778871 0.0402379281591003 -0.00174351690017862 0.0309354380003696 0.957774516335227 0.00703599785068387 0.19008484661021 0.0116326136954717 0.134935048800579 0.0138186234502949
5 5 -0.618821537531601 0.526482578726867 0.0010239383253571 0.0116231932223628 0.00531539694492441 0.024037118240809 0.00202714877355748 0.026525710060173 -0.00474039744339171 0.0797274011075646 0.0105432355825085 0.0527357318714246 -0.00762946506118192 0.0469945603352777 1.01579150722656 0.00942574004018893 -0.0152903085198521 0.017535927047142 0.13274609976423 0.0193816562906353
5 6 -0.631793505517319 0.544391929156741 0.000156324978158323 0.0124865593790527 -0.000611612398061599 0.00697879090865075 0.000122237646045373 0.00867955199228754 0.0059626190485652 0.0195515587886843 -0.00249746454457151 0.019290855822536 0.0325576263695337 0.0212776860063386 -0.00604921518210246 0.00593672818679426 0.971130498046875 0.00572390626202134 0.253687903320312 0.00701954233007637
6 1 -0.337513362522582 0.462995436937977 0.00125361086125 0.229975084719683 0.000127318237214912 0.200615970686676 -0.000659203091705044 0.0921667689559645 0.00223314137040214 0.48410806808272 -4.82396223917217e-05 0.513604389795093 -0.00108519217804276 0.300875593158522 1.01452100722314 0.229696723480138 -0.196241246037771 0.199902269141489 0.0264318847108882 0.0908701410740415
6 2 -0.330642340129316 0.464916100757488 -0.0019261144401348 0.31003232073523 -0.0052998792535386 0.204897345913136 -0.00455037321912377 0.11928702862402 -0.0506039534477022 0.592129352309138 0.0101320629135386 0.525777925989033 -0.00881170021187194 0.397346952033257 0.979916172717525 0.309444930548065 -0.327547300657816 0.202989587985425 -0.0282167908499571 0.116590341685965
6 3 -0.198922424840441 0.478007541818861 -0.000109326533723959 0.450980540849663 -0.00125814180607747 0.234090249902881 0.000362807785319011 0.125278349547586 -0.0705534005924528 0.699822020080527 0.0181325248358073 0.622669658281746 0.00029585718042806 0.440837872141772 0.992269862272135 0.450162374033069 -0.196979003445431 0.233010648771825 -0.00818824529071615 0.123796777845772
6 4 -0.625412957710496 0.528560255624084 -0.000164303442534574 0.00786305550790667 0.00133593051146449 0.0147709320784024 -0.000601249092201847 0.0163703558210735 -0.00986933461181477 0.038823424022311 -0.0070292750622625 0.0447805245263672 -0.000397531556147728 0.0313986152203685 0.995865136292614 0.00737927303276637 0.0875683546110511 0.0122203073669606 0.0621952512698182 0.0138482892365127
6 5 -0.629253160586122 0.524918864445532 0.000570943425822643 0.00734541220500848 -0.000516896070582538 0.0151448681070083 -0.00127682976054825 0.0163891893324104 -0.000595121130686678 0.0473628974468419 0.00693360656300164 0.0460386202366227 -0.0042459084296546 0.0274762152480981 1.00469519339364 0.00658024402761023 -0.212422030978618 0.0130753228971912 0.00687761351623903 0.0135913004002548
6 6 -0.619421431071453 0.533051183737078 -0.00595969921535033 0.0228461115012518 0.0036113954618687 0.0146064748680222 -0.00819638475029276 0.0164748407146287 0.0203323996502719 0.0405558583990869 -0.0148446252517996 0.0451595286368331 0.0410587608178561 0.0316598276058993 -0.00738397814703673 0.0111399024286477 0.97705482709704 0.0107560994396621 0.159108685249959 0.0128977635733617
7 1 -0.306764482858546 0.458658161670587 -0.000408617679499726 0.219999100901014 -0.000794905071299342 0.159364722852434 -0.000860403936493969 0.211570520952721 0.0309025443534814 0.434217264029174 -0.00423138748870614 0.590618426863777 -0.00983538524273602 0.294641921199683 0.994824180523575 0.219748472171841 -0.141635712329906 0.15888473332657 -0.16445306385065 0.211001516110012
7 2 -0.427408293255387 0.478967138009984 -0.00594931173813572 0.230516288624625 -0.0054684374507935 0.116845502183625 -0.0117145493605545 0.156666954245522 -0.114586175367947 0.55566034566766 0.0324478559844669 0.328889310039106 0.0234060600657062 0.317415475316865 0.908788687760417 0.229819918067394 -0.228059991820695 0.113980154191064 -0.413866327372871 0.15504271643649
7 3 -0.317129508211319 0.473530402086289 0.000562871270169548 0.347791404948708 0.000264835219983378 0.148958247294569 0.00375575008317819 0.171418041958973 -0.0801716179116689 0.517439847353067 0.0111166523174518 0.543517834239299 0.0135264277679521 0.292202582188495 0.994421674534575 0.347286392651696 -0.111387487697103 0.147770212468632 -0.154027646153391 0.170096885820054
7 4 -0.628833138374792 0.536419278331034 0.00146294111619303 0.0102987086563943 0.00132553769937874 0.0172014008886504 -0.00467661627993853 0.0288266126158852 -0.0226516064794125 0.0523180941739456 0.0183881838722669 0.0447848945546609 -0.0267258621508739 0.0326866536068822 1.02256651668294 0.00514729381316917 0.0254619467905697 0.0111180581628882 0.0536402905907324 0.0149817367242344
7 5 -0.63369010626409 0.528953245701607 0.00106085732987235 0.00814161540249061 0.00134491413118956 0.0148189709250821 0.00281774091612795 0.0179408593307742 -0.0015298408928352 0.0493776084932712 -0.00139703185049587 0.0405572420590622 -0.000543630772416126 0.0256127176011651 1.01479589097877 0.00730568130810338 -0.0980582463298939 0.0115680303191015 -0.0534716677109375 0.0131543191084592
7 6 -0.628303269447471 0.542283798100629 -0.00564642044646875 0.0220454898596224 -0.00173246452809381 0.0143300991701915 0.00229474419698528 0.0114821586452753 0.0256274303984285 0.0364207427602946 -0.0267583634335763 0.044059491488985 0.0307986239309543 0.0238385581945355 -0.0255320237756331 0.0120687595544646 0.409271407271635 0.00941962925073376 0.88862998608774 0.00833340420418357
8 1 -0.299755499867352 0.46042789591661 -0.000595461750553385 0.269916346236376 -0.000799741181819661 0.237612262257734 0.000348690187060547 0.157310138937421 0.0527882514470052 0.699033181307916 -0.00968562202003581 0.605240584484052 -0.0156530862346419 0.449860928634245 0.981214367073568 0.269536460827684 -0.199572612560449 0.236248073603485 -0.188225723926318 0.156496072031789
8 2 -0.293377815632218 0.464582765249912 -0.0038528055909032 0.270531569571221 -0.00582385522955793 0.232143435967737 -0.00225109782014101 0.204656866238561 0.227287981474272 0.552547101974589 -0.0586336703780272 0.71646959048271 -0.0702777340204078 0.649821108899145 0.940320875685976 0.269421193506077 -0.278742426824657 0.229895073125096 -0.196760307553296 0.19958833977938
8 3 -0.19351985419359 0.458724749672543 0.00121759228741365 0.334164265482115 -0.00208111627527755 0.231299115431461 0.000234377669880756 0.206910181504211 -0.0964463194692434 0.647462942320581 0.0109547679856086 0.786140217054997 0.0123089008618627 0.423655864256109 0.983336573478618 0.333657367516071 -0.171399217619398 0.229791711753894 -0.144658027215687 0.205269417482497
8 4 -0.637726458982249 0.537875923565333 -0.00207817826619327 0.00823304886680775 0.00546156779540133 0.0141474262956863 0.00127068462363179 0.0138965304101978 -0.027913265940465 0.0151754483469801 -0.0095579078672051 0.0238278258615701 -0.00651842875019922 0.0217426277584681 0.922353804177989 0.00476406787683931 0.263309609931216 0.00520287859212005 0.255082516358696 0.00745615611604289
8 5 -0.639463722621354 0.537725697835807 0.00042148084476985 0.00505248957993052 0.00122046164581944 0.0122431129729479 0.000724318448216435 0.0163221311615218 0.00588661223171149 0.0252190590850765 0.0209166400575839 0.0254198340990917 -0.0100219610779554 0.0147242754852682 1.01340774973958 0.00422151668503326 -0.0710702226331062 0.00710642690218759 -0.101047379588397 0.00830723836905492
8 6 -0.627089533537997 0.54552114969283 -0.00336354284419097 0.0199246533838069 -0.00214526768567824 0.0128560961483287 0.00200261437051244 0.0151664628665575 0.0340638952483782 0.031999482261736 -0.00668121104158738 0.0387257895853346 0.0229507386982675 0.0178854000827814 0.045268529077309 0.0114199106383991 0.60508905666956 0.00733708050701592 0.703874286284722 0.00951830182991048
9 1 -0.37164660578822 0.467267674726799 0.000191052807671274 0.248879600089854 -0.000498834800628005 0.138107501057833 -0.000830103153215144 0.17243890494802 -0.0548277159004477 0.457859703054282 0.00531838462992788 0.409990209807544 0.0111961964570613 0.357747555082312 1.00907346835937 0.248637590816133 -0.0138377601220132 0.137630836109565 -0.120209197610159 0.1718414188799
9 2 -0.427075431896002 0.480856175330876 -0.00311991539501594 0.20888705793655 -0.0012441211607111 0.120937528896652 -0.0055865080603699 0.137286091796526 -0.140564908848342 0.572969047373923 0.0149356898656633 0.460663684104356 0.0262729609744898 0.419486313343282 0.970954030086097 0.208381255281051 -0.0209356355106505 0.115646948818212 -0.272525371071014 0.134723679749271
9 3 -0.313140747277053 0.475828264325837 0.00378110410452046 0.395653057615121 -0.00171058052881324 0.136977676033439 0.00570820403456101 0.181475415978046 -0.0659685908307481 0.527292948206528 0.00139038171233259 0.5066665380224 0.0134864333058743 0.350967981113231 1.00315201588542 0.394993234600831 -0.0188410095923735 0.135117656288824 -0.0806710528291853 0.178523540136741
9 4 -0.627530823653232 0.524475751851574 -0.00602765974368063 0.015315395849173 -0.00518146462093375 0.023063133408559 0.0108778374877441 0.0332382062471854 -0.0151133804289714 0.0373845303278959 0.0148596908945359 0.0638739105953295 -0.00245233219708 0.0360006920036133 0.977718629640625 0.0132631170461758 -0.0284994424448344 0.0185187432250454 0.0891435352947469 0.0253085849336675
9 5 -0.633713631013694 0.526030674232032 0.000975646581522674 0.00930032160819328 -0.00152493773739809 0.0122164070554983 0.00430529134118212 0.0175395286203155 -0.00155553747638264 0.0696300479663095 0.00610836861149861 0.0433133382687995 0.00571301487133819 0.0312977150966811 1.01654576128472 0.00899144289606927 0.00615995559012153 0.0109850914904978 0.007770512609375 0.012829019259011
9 6 -0.628414047268328 0.530063039309266 -0.00378781091017634 0.0201547253092997 -0.00177739953727687 0.0160332538453771 0.000250370930332188 0.0136889525517444 0.0144830705982678 0.0519910557214932 -0.0381799026011172 0.0581858861232362 0.00661327766128875 0.0207878737752202 -0.07843890639135 0.0144532524187876 -0.102725756754688 0.0141117347857671 0.936051265671875 0.0117016574926478
10 1 -0.327086776127028 0.459226854544395 0.000205733081942806 0.268258044354336 6.07405887662148e-05 0.168678137647544 -0.000247713736612618 0.111711296653106 0.0395670549963738 0.511813233886342 -0.00343797976463738 0.575495628044352 0.00546013859215802 0.401886467874531 1.01702665511498 0.267994336413255 -0.0656056597570165 0.168328831964327 0.0482065693653921 0.110000860448035
10 2 -0.345652600356602 0.463053071179259 -0.00215434956525931 0.273819666354605 0.00144380708187832 0.171614751139922 -0.00326137924653258 0.169577546890159 0.104186436201142 0.603832149257101 -0.00953582886803856 0.799046330500612 0.000723025549767287 0.331200962987762 0.992579551496011 0.27296594463006 -0.0369962858370645 0.170247536095494 0.0135738852197909 0.163228962460019
10 3 -0.263162073365728 0.463337371199746 0.00264315638248355 0.42240596564843 -0.00150373690867599 0.173260189933502 -0.000839381163301809 0.14985247474954 -0.100210707471916 0.607131923221983 -0.0146298151562911 0.529140358140117 -0.00614732127109375 0.469297926396867 1.00299684753289 0.421895468731918 -0.0479827336094572 0.171883566749712 0.0347843677526521 0.146728264697168
10 4 -0.640078551091241 0.542251226544214 -0.00143508606709664 0.00697383196155808 0.0010991023025068 0.0157451061313084 0.00133933249643139 0.00881182840784417 -0.0160563844672239 0.0113882671742092 0.00286248873160544 0.0139736256138561 -0.0051946397119809 0.0213444160378415 0.894307647554977 0.00379000391963848 -0.0220540359273727 0.00545951649432133 0.194850585001881 0.00597915266009502
10 5 -0.630886542166037 0.526755493498941 -0.000190720315555575 0.00843535650100979 0.000837276782393466 0.0154747996462617 0.000113490389121165 0.0135874966605671 -0.000526556747244673 0.0627467946581554 -0.00602412262545099 0.0335036022169274 0.00748807940069957 0.0246199538752239 1.01020633668324 0.00816837106652203 -0.0242124755522017 0.014568263600803 0.0286876456902763 0.0112303615925061
10 6 -0.633606314208568 0.538143814511992 0.000547105103128502 0.0117233056356992 -0.00375358704768505 0.0108807671365159 -0.00292714793083621 0.0103144551281938 0.00837346312501697 0.0350393144679664 -0.00121594752027074 0.0374850230689371 0.00813820787615124 0.0157787272868256 0.0158414164399515 0.00719046016148956 -0.124820034267241 0.0093895463355071 -0.0390355728313578 0.00849149221359633
11 1 -0.431366510871248 0.4778994116884 -0.00118576233387977 0.188938778424141 0.00025731045791446 0.163643971323513 0.000730493451867055 0.0874366773189193 -0.0154888148376192 0.353203059337285 0.00172872601490466 0.385056466445391 -0.000866744037658898 0.276162633742064 1.00387868650689 0.188605446228955 -0.19346560968549 0.163204744944127 0.126943435885395 0.0851817630939525
11 2 -0.43527506672087 0.494681275282595 -0.00284389562994792 0.248733591016066 -0.00691183572202402 0.154939267115322 0.000498953284982639 0.146289572487407 -0.0561219669798322 0.435943108453139 0.0079672933754485 0.551618224875655 -0.00997038623119647 0.150038216650645 0.964142631467014 0.24736204490188 -0.331999987080787 0.153508298164424 0.139075093452595 0.140175341954499
11 3 -0.348717448293558 0.477173185821431 0.00289128510158628 0.3726058506217 -0.000352272065641984 0.184660193556413 -0.000912568411128397 0.124590885600047 -0.100446990796197 0.546764360671869 0.0216996339872962 0.387899265286602 -0.012750285821712 0.331951344997249 1.00461624573709 0.371918217607381 -0.182366045923743 0.182762423835002 0.123647892875662 0.122600310219417
11 4 -0.636081608692102 0.53609946156127 -0.000203106322528833 0.00700803232437759 0.00116368043320637 0.0151604261034037 -0.00149729427878184 0.00871414079405582 -0.0127099402137948 0.0120049611254391 -0.000536847548821639 0.0155997864355462 -0.00449620766233284 0.0250251254253328 0.952170755070755 0.00621784475620602 0.232666167256176 0.0079676791735453 0.178252988153007 0.00651524435695522
11 5 -0.648374467923916 0.536202658765753 2.88098197871011e-05 0.00304996405980735 -3.19608303038564e-05 0.00785382911638265 -0.000125196138218551 0.00547482155906652 -0.00169066016978009 0.018903861700075 -0.000996493683403989 0.00644310703591127 -0.00233420806735539 0.0115681015401641 1.0121626011137 0.00274735105455408 -0.154840838241356 0.0062382252228461 0.119351373834774 0.00502729279407008
11 6 -0.643553031373099 0.539562164233576 0.00062178799280784 0.00636447575712924 -0.000273612566814693 0.00648316922268289 -0.000158212653562802 0.00818524108180264 0.00876697735026623 0.018386263563087 0.0147996999648892 0.0154515785670656 0.0290720738328285 0.0216100130161106 0.240977608349781 0.00458190533119991 0.959611063596491 0.00595546763539767 0.104991969315652 0.0072933910625261
12 1 -0.355560155447154 0.465934707083466 -9.21391085156255e-05 0.284441839821761 0.000827275840871875 0.151588305727746 0.00170010802277187 0.10902075742299 -0.0792475920826562 0.396816118813245 0.0180192490122781 0.423503708202954 0.00603742439878125 0.316839166635546 1.0194030086875 0.284133132184705 -0.136903903354091 0.150803073294863 -0.0392852483374313 0.107861546930052
12 2 -0.42179157558609 0.4801841508273 -0.000949088958578726 0.232051059135554 -0.00483565996215445 0.154828097713999 0.000319738868057392 0.104328564691607 -0.0675002597771935 0.413887582465301 0.0149931818603155 0.367201157923315 0.00153555737222055 0.317108225852408 0.998389077854567 0.23147297891799 -0.245597535933083 0.152829978210679 -0.0742414764333113 0.102022886880095
12 3 -0.311490436338625 0.479102128871457 0.000813056907707201 0.340099960560642 -0.000496247653203125 0.191497324556069 -0.000412361126878397 0.106429063490695 -0.0875168323327412 0.557149576833188 0.0142697908064283 0.402921754829831 0.00142102502017663 0.322825607108299 1.0082774439538 0.339440824919615 -0.160917511084484 0.1903905469536 -0.0610726244907439 0.10498072567709
12 4 -0.636301750626951 0.52622870168125 -0.000529326617102328 0.00708203878363165 0.000707491991895772 0.013934018347827 0.000660816593788603 0.0138769536325068 -0.015203150503652 0.0239694751813836 -0.000387670351019608 0.0322512449421903 -0.00596902640454044 0.0256506032037045 0.990221519653799 0.00621194415171767 0.101709307871124 0.010270973420328 0.0821704590081703 0.0112271241540894
12 5 -0.627684013763497 0.530219182625889 -3.50191958077613e-05 0.00751246647910759 0.000124781675845799 0.0148635007756922 0.000918557874254355 0.0172897359936857 -0.0024011464640284 0.103012771972852 0.00195543134382915 0.0468174399690749 -0.00534470724824667 0.0262257226875677 1.01270223829406 0.00666198524884001 -0.200409026130891 0.013542023355331 -0.0434611176847259 0.0127172870899272
12 6 -0.63012919397725 0.528718342661708 -0.00359865031015964 0.0159356714558689 -0.000200488412744609 0.0104335847005149 4.87296726250001e-05 0.012317415408358 0.0134283674780807 0.0312273171752553 -0.00416021491336589 0.0373214419099696 0.0260504368187497 0.0263261054278771 0.0643671613819869 0.0109427980744745 0.820221124570312 0.00810931729195945 0.264815987544401 0.00997317905362646
13 1 -0.316988827925179 0.460854393995368 -0.000348818591836623 0.213586445936151 -0.000748957699904057 0.196798404046767 -0.00103192277945998 0.143208220699336 0.010575570404477 0.545030676272071 -0.00248676045489857 0.54551016143661 -0.0035018749915159 0.31044790489081 0.979529870202851 0.213289498281179 -0.265994305605948 0.195825848154457 -0.135587818823191 0.142251295407354
13 2 -0.411582073864772 0.481399962634359 -0.00399215926080114 0.230057649175149 -0.0055603983673125 0.190410067166888 -0.00576762120330881 0.143800419196161 -0.114086646859688 0.401341517000617 0.0352883336794815 0.458586756532074 0.013431180009233 0.383835416910699 0.931175603139205 0.229079832836813 -0.344458693495199 0.188464410320158 -0.215214449772642 0.141151808042143
13 3 -0.317234723087439 0.463191730560919 0.00357174703055186 0.304177138465913 0.00145068212119215 0.167075398751593 0.00208566982615692 0.154388756822802 -0.0979753666131981 0.509367406135839 0.0228540842802759 0.615306460431179 0.0110432632994348 0.330104372724331 1.00538808508976 0.30362564601655 -0.191782099509907 0.165049460233037 -0.0968782195690558 0.151960786159072
13 4 -0.638179130162868 0.543066636603673 -0.000669198850622449 0.00481503224132374 0.00590644776180357 0.0121596947643521 0.00365393806041614 0.0140605083978249 -0.0080833038323514 0.0140257988178764 -0.0071919979713251 0.0175752670723336 -0.00176575355299107 0.0182211143802775 0.989620217203444 0.00290288835325291 0.125603516244101 0.00545197518876486 0.072597792506537 0.00621060808498242
13 5 -0.639297749080434 0.535187318003595 3.76441025629112e-05 0.00433596809476904 0.000183031390622533 0.0103737207927797 -0.00126074401695869 0.00886379212460399 -0.0019330933757426 0.0403824192198814 -0.000442971225277686 0.0236586010961221 -0.000381312210084978 0.0150543661358185 1.0024336723273 0.00373742271121098 -0.221401995015077 0.008261790321929 -0.0583641329989035 0.0075207740900502
13 6 -0.624337936876007 0.553755547011914 -0.000177106713496686 0.011525666259784 -0.00173209890462525 0.0101131182239813 0.00131335934914491 0.0119471038493977 0.0185011398386217 0.0259565555718717 -0.0100618412263863 0.0305613712609274 0.0139357563317787 0.018001240353527 0.224605782486139 0.00653069232991513 0.671896923311492 0.00697885681238592 0.584327889364919 0.00809803486782595
14 1 -0.385501824502105 0.460095719296736 -0.00115738359675742 0.195502781494002 -0.00243394117425847 0.163404707458377 0.00051244763668697 0.192193593229452 0.0249569189685434 0.349683871511596 -0.00389588568707627 0.756168407808819 -0.0154953113462394 0.425338185587198 0.902426043207097 0.195133949310079 -0.254352353634767 0.160701936152004 -0.420208459625265 0.189349261648786
14 2 -0.285486358859423 0.511997359659549 -0.00312309149493345 0.225797484826375 -0.00173124058600116 0.22504149368181 -0.00131212876441696 0.292386849907574 0.112477918911863 0.476913123325202 -0.0221955074349537 1.1323112796775 -0.0577451707537138 0.759903395049659 0.819330508718171 0.225223590026241 -0.305949177272569 0.22005946621719 -0.493372401126881 0.286679194420953
14 3 -0.203378373864087 0.474784640200934 0.00326562777251042 0.332114777973171 -0.00150849217334549 0.237285709536301 0.00511189375942708 0.264072991797039 0.0133734112198958 0.563760250538785 -0.00911540855447222 0.811155091914513 -0.0225713621674653 0.65886213309628 0.916270863680556 0.331053568101926 -0.247374396905903 0.235341337764582 -0.386186841468368 0.261477901042148
14 4 -0.639930771868791 0.5280379685885 0.000497646235658709 0.00911805287849417 0.00442295448026678 0.0162650822464152 0.00261172089732002 0.0169138702477403 -0.0168784881570679 0.0183922739247976 0.00135067650151065 0.0310638790027618 0.0028854961498287 0.0249960392206824 1.00030772769097 0.00687974444480926 -0.0139288658967882 0.0113284789043586 -0.0958755667459346 0.0120750326955862
14 5 -0.633771114374627 0.530378924305392 0.000612028731561224 0.0101035941969312 0.00101248862367876 0.0139435018944933 0.00148320788232755 0.017003523284755 0.00576134981127865 0.0355804669683487 0.00836551058066562 0.0431342223703063 -0.0032243599243362 0.0280538750302494 0.955359135429688 0.00802968978019691 -0.207338328216146 0.0110340956019608 -0.336373992153646 0.0124593040908385
14 6 -0.628355645282404 0.529959358732366 -0.00912944379472793 0.0282224510152907 0.00303991352093857 0.0171600019022192 0.00709383268346878 0.0209499359964152 0.033753046970337 0.0389511420208158 -0.0357061180366958 0.0536836892622174 0.0277907943660432 0.0252901504176059 0.223693438285846 0.0124752909394694 0.505880507337623 0.0114589251262772 0.823680285814951 0.0106612712903254
15 1 -0.390526282476396 0.470930092491822 -0.000757667256947338 0.219765638313079 2.99913346643519e-05 0.196293812576725 0.000226553781655382 0.0895396326095178 -0.0286854263271991 0.585466890014413 0.00591304037698785 0.445348795843613 -0.000922491521652199 0.25081267091808 1.00788240189525 0.219400538097489 -0.215537765812095 0.195894087017802 0.0691294171804601 0.0883895616315542
15 2 -0.393720911542089 0.481360338460772 -0.00152255917456087 0.317842280012847 -0.00609181387196615 0.171868863040062 -0.00285573608139258 0.114575665102507 0.121708317158854 0.510902508118404 -0.0362919205909147 0.514728959640143 0.00214008021862142 0.25525118045483 0.983793953613281 0.316991131073141 -0.302600128919759 0.170144920637889 0.0713977348851562 0.111304871436676
15 3 -0.280227328116279 0.478913470640684 0.000540567950271577 0.458384884357869 0.00603592463077009 0.204428632228232 -0.000732836134354539 0.132152088741757 -0.112359025363132 0.594986640709141 0.0179079727913579 0.481830922710202 -0.00670832715649182 0.36502769648812 0.995586477250744 0.457698356041604 -0.14315965046481 0.202841727808615 0.0712622356040848 0.130648800053932
15 4 -0.641496217339585 0.537109906202275 -0.000962888456975953 0.00561491628221451 0.00284249620218962 0.0149887345119125 -0.00176851520272073 0.0121368263793874 -0.0103508553410916 0.0119708223743832 -0.00271053215285686 0.0209029215387847 0.00392356792502873 0.0197369526178166 0.964424002661547 0.00405854682787117 0.231481597142744 0.00692601803288791 -0.00452593816954184 0.00797947772903007
15 5 -0.640037091389994 0.53194178615701 0.000276156352332842 0.00500900804822589 -0.00063648680571079 0.0133670498715695 0.00079176227921079 0.0117174046131773 0.00147640148534788 0.0471630451290068 0.00378155331808933 0.0239565182521207 -0.00448703211213216 0.0176058757892214 1.01882037768278 0.00422343982321772 -0.147086386149764 0.0100949990294196 0.0587489668304835 0.00816956888374707
15 6 -0.639883147448173 0.531265854159869 0.0024523376326194 0.0104328352864281 0.000266714904036024 0.0080953669927971 -0.00337693875565245 0.0156888207491198 0.0111847636428097 0.0389975879409544 0.00558466787017941 0.0317568854049051 0.0120026489182854 0.0232371057892668 0.216527439210069 0.00779168594103582 0.916431189496528 0.00715308173772431 -0.0451828733474783 0.0128592098089999
16 1 -0.431362808379042 0.477181248917123 -0.000319878514473039 0.194835617012663 -0.0017259296114568 0.118825464286008 -0.000163984418560049 0.154125001156551 0.0128946334378661 0.302848678252841 0.00214181024863266 0.298577277083848 -0.00197736907808517 0.309421606160429 0.99025582901348 0.194563896541183 -0.0504107102183609 0.117919786830547 -0.219284775773894 0.15368082241398
16 2 -0.440146451770759 0.485215967490382 -0.00444921395644914 0.197307701508015 0.0014542960605576 0.14459292002495 -0.00520843811588995 0.159612899226391 0.10263546669136 0.430060334760097 0.0116150023535999 0.318642044650071 -0.0416590948035846 0.309646449891285 0.916036803155637 0.196730946346913 -0.0609810824570987 0.142044744772808 -0.383244142909743 0.156753587846326
16 3 -0.339080301791712 0.480317131361736 0.00371172697163564 0.393658066851541 -0.000656535042450133 0.147452422819332 -0.00382074003806516 0.184919418143526 0.00529860160415558 0.476995732705508 0.00274264634075798 0.363083053933625 -0.00123694562044548 0.271098819977347 0.988514532396941 0.393031449609136 -0.0410104523949797 0.146337153904525 -0.230834089605585 0.183024416032402
16 4 -0.642254023210701 0.540660946111618 0.000657976590047101 0.00569898507112585 0.00361303366648721 0.0100003837838931 0.00633171343982337 0.013875090858322 -0.013950562877109 0.0182116766856702 0.00762431118636956 0.0339051673163504 -0.00299153891155054 0.0214209826658842 1.00288573986639 0.00353951941669634 -0.0648104384588995 0.00708283589901158 0.0885333416820199 0.0101412526816841
16 5 -0.646538416475197 0.536027968915291 0.00122033567648269 0.00496756218444805 0.000282286028511038 0.00851580549264806 0.00153605368662113 0.0113939314106479 -0.00232966046129393 0.0248622650423796 0.00256072263866587 0.0172370452377266 0.000177689699542788 0.0107351142323998 1.00283309489183 0.00333165357960028 -0.039475821425601 0.00635929343514806 -0.167845387679287 0.0079158393590744
16 6 -0.635906117499551 0.540805566032016 -0.000690082359857366 0.00996631497940011 0.000276839680341741 0.0114604185047251 0.00032939762637971 0.0092320544104409 0.0118814889989098 0.0217180733679052 -0.0177598061187734 0.0244043998370704 0.00455347393318371 0.00956118491201108 0.188780629202009 0.00665649976385514 -0.00156944216517857 0.00712207514984568 0.873247152421875 0.00621640610822479
17 1 -0.387039462708526 0.471340331643968 -0.00107860869036885 0.222514844832932 -0.000707770505722336 0.169560196636379 -0.000490384847599897 0.135057838563719 0.0190306804663292 0.454681248789743 -0.00435146661043801 0.419269245893103 -0.00470009816438525 0.299468945994208 0.991004192661373 0.222130715108552 -0.162352696218427 0.168527619541386 -0.19299384288522 0.133887029373017
17 2 -0.401431355861112 0.479425823691872 -0.00514604121119792 0.305867803387387 -0.00300357470741602 0.170313161158747 -0.00428874461253499 0.14146067120299 -0.00283639389453125 0.440095901609323 0.00880133264500326 0.390094456551499 -0.0133837750335449 0.37289386204226 0.934191623665365 0.305342936071811 -0.268743470243354 0.168058609619284 -0.302833598477246 0.139683157742629
17 3 -0.365194496888334 0.482880088421838 0.00336787729505774 0.387311989917762 0.000210966647567935 0.16217874126374 0.00629773097550951 0.14130903165973 0.098439885471824 0.549927273142656 -0.0222034684826257 0.415939942927432 -0.0310011909952955 0.259561983763958 0.995949412466033 0.386640889728288 -0.132620006341675 0.16048837585277 -0.157408985955893 0.139262041062646
17 4 -0.643707360983648 0.54709797498025 -4.50791666518555e-05 0.00322377873190125 0.00156403459697815 0.00824924923753567 -0.0017562370070509 0.00918908768129792 -0.0153405680537429 0.0107218999830723 0.00334773934649536 0.012629855155778 -0.000144910190222412 0.0120191031748969 1.00389864317627 0.00269118314240988 0.0168085283265137 0.00458761467873758 -0.140738485216306 0.00667971410375199
17 5 -0.644675070329398 0.541386142783106 7.55777541741787e-05 0.00428945504937909 -0.000143638886373397 0.00716994089453389 -0.00103215099458456 0.00833783238750225 0.000739670474030609 0.0179193370465472 -0.00122978426901282 0.0134011262460429 0.00076275680518133 0.00919470534247739 0.975585704797676 0.00311577467618902 -0.239250218559696 0.00520478846282727 -0.205742822939704 0.00619903420805007
17 6 -0.629876420657766 0.544111902566298 -0.00160653922355832 0.0102037737069237 0.00015313344831228 0.0111645882370101 0.000429891721315801 0.0113925395998491 0.00433087518234815 0.0226913814830362 -0.00908343119579687 0.0238403497966207 0.0111124189300339 0.0137159562664913 0.193274804460827 0.00702389191563305 0.676170269014085 0.00895144904963471 0.705078706778169 0.00960386438923016
18 1 -0.436306077297177 0.474007929974224 -0.000760027319592634 0.20415610240115 -0.000348385608563058 0.133783984390332 0.00135086865554827 0.105830089776879 -0.0126495858844866 0.259074978741053 0.0058543683048577 0.38750133538082 0.00360226082250684 0.238763601143275 0.988319164090402 0.203884893323169 -0.236289229975809 0.133222658358493 -0.0640522971372489 0.10482990836454
18 2 -0.470681472754459 0.490071688258084 -0.00250894305461476 0.202803609230735 -0.00265818613400997 0.136491764580266 -0.0014364029575264 0.126326950359316 -0.020001472873688 0.355384803203149 0.00980916234172953 0.379183636046563 0.00192121905792026 0.276286584258869 0.957903418265086 0.201793545593241 -0.300823343770205 0.134028484907028 -0.111240249965888 0.121828490364024
18 3 -0.438663811185222 0.484648090481038 0.00223880059102557 0.227994526860786 0.000142385612393182 0.129136018928661 0.00162422789175 0.10758133030559 -0.0309198196498778 0.434949164761651 0.00483909505683239 0.295027459247455 0.0054944793258125 0.25220444881105 0.997267220880682 0.227332079246353 -0.207326438964375 0.126854088678679 -0.0524111063227983 0.104580111006433
18 4 -0.650240242162375 0.534395879168263 -6.30082821226425e-05 0.00325494241837402 0.00223915928642237 0.00601658904790216 -0.0011882797670773 0.00705918454635992 -0.00580734166534205 0.00870281632281216 0.00260049867338788 0.012151664911285 -0.000672180393871984 0.0111377313912118 0.979080713130483 0.00300262581626519 0.15001750271912 0.0050365081942243 0.152368188410088 0.00553146282486876
18 5 -0.645518459042212 0.53099975134502 0.000181977907688399 0.00401138919645479 0.000263726467105993 0.00955356756299916 -4.81360471346747e-05 0.00988241088712863 0.00112164976939277 0.0345681640863327 0.000502687594757063 0.0170021416125431 -0.000891255473481806 0.0153527261738194 1.00602774250856 0.00369342739903876 -0.185629527440068 0.0082630550585547 -0.0533101024903682 0.00806704299062948
18 6 -0.645039855011435 0.539909038662556 -0.000594375465878462 0.0064455973353124 -0.00013407286296512 0.00409769407350077 0.000201081998308606 0.00524535869008304 0.00257703172005361 0.00790547164222677 -0.00425276904417548 0.0141040940132763 0.00329526102096466 0.00940289957857418 0.179104952692308 0.00505398125285812 0.736769536634615 0.00361877975196226 0.589711743533654 0.00471715418957332
19 1 -0.238252786596887 0.441222720223505 -0.000751080395372596 0.310431976578504 -0.00106958837692308 0.203620469952474 -0.00476649391650541 0.157779619340497 0.000183357907902646 0.849486043697414 -0.000369111026676683 0.679948293894196 -0.00288661519673978 0.435936237788276 0.996360136960637 0.310106856378112 -0.20607050288256 0.203101467004958 -0.0985817370919141 0.156256577650679
19 2 -0.316821118319495 0.457959800536126 -0.00730699633118555 0.2844926672915 -0.00695530594023828 0.202689166284992 -0.0141210534711445 0.148609623375056 0.0686141804520312 0.518261944318132 -0.0271686011450391 0.635374452168848 -0.0383132787675664 0.433072597121913 0.914985303847656 0.283777756582193 -0.375512369074371 0.201118660523313 -0.236836226455312 0.144467022029874
19 3 -0.078306398113335 0.493267285356331 -0.00306806990741186 0.53000840004151 0.00133432285417748 0.260509329720509 -0.00838655288767628 0.191732914955388 -0.183683781497276 1.10558448104335 0.0459666507875 0.804513897483923 0.0343581470894631 0.471183307745851 0.956361687895913 0.52954002641709 -0.195357022748798 0.258614737199751 -0.137878615979748 0.189944348139865
19 4 -0.638986666530727 0.53209411177613 -0.000771864706626926 0.00910004842087009 0.000209225220825086 0.0102086130539406 -0.000132141072838677 0.0116707627573004 0.00645598878514942 0.015087275438059 0.0100767143891453 0.0328168223426621 0.00467608779367618 0.0188512692402822 0.746091660434503 0.00623313964392188 0.378154084674658 0.00723248528190118 0.475020123031892 0.00900066457345846
19 5 -0.640136697217531 0.531159784474125 0.000122926176369307 0.00469653305443537 0.00089888318778339 0.011226531838845 -0.000242557613205116 0.011550265010721 0.00266532200352119 0.0486269505339596 0.00505511307914197 0.0253009654435246 -0.00676312085904732 0.0212048230551228 1.0034740666738 0.00441864388266805 -0.204661032669092 0.00995361350556295 0.122619787873502 0.0100201949425834
19 6 -0.632999218754884 0.546461684255782 -0.00101433578756419 0.0127838225302615 -2.37714281279746e-06 0.00626910317258723 -0.00022259086569695 0.00578232053528629 -0.00364312793470345 0.0179328099220738 -0.00944678550743788 0.0298623895013452 0.00985750914279989 0.0151701250281354 -0.146238337716773 0.00982437484139114 0.742785025263554 0.00524255811042416 0.669997798522214 0.00513530107423255
20 1 -0.259518117088663 0.458475195837703 -0.0010276069877451 0.258630182334024 -0.00213048636801471 0.256230959035603 -0.00172828794724265 0.141728040728408 0.00439814638143383 0.669660062516093 0.000105807922242648 0.833234082765819 -0.000529692662239584 0.40613599280049 0.971149185646446 0.258252229081616 -0.328084534117371 0.255801859863427 -0.0417760522503462 0.141213372526336
20 2 -0.338291941451443 0.467024672485213 -0.00525041073318015 0.288603796033434 -0.0058156146955239 0.198563013954072 -0.00420071156249004 0.141635382298137 0.0965282706310049 0.443458558472386 -0.0452900463158854 0.687361517567959 -0.012229143274663 0.575541558125506 0.880031612996323 0.287839878447646 -0.467049824960172 0.197200856007239 -0.137594943772174 0.138566658388377
20 3 -0.247169665420288 0.471620332044863 0.00382664236535069 0.35052978856815 0.00393224578834549 0.277954562193269 0.0012238164825625 0.153920211833355 -0.0863165379171181 0.694043581254785 0.03984059838125 0.65515466962028 0.00777528482376736 0.563729138011025 0.989978952899306 0.34966050976943 -0.255082105715469 0.276648681350154 -0.0320715912930556 0.152289551820634
20 4 -0.639872725383092 0.527767117830281 9.67907534627604e-05 0.0069153385745395 0.00126681591235914 0.0126457116579525 -2.04795410750473e-05 0.0157752213734035 -0.00900475538347538 0.0223291642605852 0.00418555733406345 0.0325518007488761 -0.00975671365355161 0.0284496258555441 0.989592718726326 0.00568518028894445 0.0925685161913414 0.00977570896524644 0.143513885739418 0.0112489632407314
20 5 -0.620027732157146 0.523601719784163 0.000103275450374444 0.0120721614670482 -0.000488505269605201 0.02301717912655 0.00261130139403168 0.0186461239594721 0.00365239392970441 0.100318562601678 0.00203556314934717 0.0755666358827561 -0.00396810774798461 0.0470566492782445 0.980247901327055 0.0113185771363404 -0.287985898839897 0.0203585234316384 0.0667281535368421 0.0166962569782819
20 6 -0.644397438696908 0.532311298923294 -0.00784505722876648 0.0136839543658914 0.00141488723129733 0.00786666713247691 0.0013323678646119 0.00795849884977067 0.00463985194742601 0.0152160622771734 -0.00954934716664292 0.0227245523605109 0.0165295978119578 0.0155514941634298 -0.00624355557633272 0.00699013571764782 0.883263083547794 0.00506584017178622 0.465130929170496 0.0064881417208967
21 1 -0.330648706245588 0.462261283553448 0.000331328701195913 0.229560468795806 -0.000536512911009615 0.181803198150129 0.00131749951740385 0.152526440896031 -0.0188298073208984 0.496114827154748 0.0069123509246244 0.462934782578091 0.00532825406045883 0.335381408062419 0.94602983039363 0.229249678126455 -0.352997735120868 0.180889010627418 -0.221337923644066 0.152136501366683
21 2 -0.381967006088137 0.473554737531349 -0.00255153063172433 0.248082055665304 -0.00345324307783245 0.191318316705668 -0.0056510107575266 0.143351301343927 0.0931138493709109 0.40931573546898 -0.0366987852490858 0.412988990373428 -0.040630256875 0.51143180107023 0.885616975332447 0.247296446874065 -0.417162219434674 0.188965303734106 -0.315559673220246 0.14154172985708
21 3 -0.291301975673511 0.475622056333089 0.00492229034291667 0.399211140553943 -9.51388555798615e-05 0.224040578994834 0.00334931470480556 0.169952532391812 -0.101807678231372 0.48748012961028 0.0408845368989757 0.496739123330402 0.0275632873611267 0.317038070545663 0.957804930034722 0.39843802179546 -0.338263143066667 0.222779687502812 -0.186799833303747 0.168622795299871
21 4 -0.644724493205524 0.534193252488579 -7.44929042729779e-06 0.00409017018353994 0.00143568811549807 0.00739186621619132 -0.00123885888246103 0.0102971235474806 0.00804823217335533 0.0117910993939843 0.00407773389325092 0.0200922628679637 -0.00141637236454351 0.0133422094234801 1.00050461236213 0.00353722746743273 0.0409848463891544 0.00555955571175667 -0.0625590638665074 0.00744854903105274
21 5 -0.638450214241584 0.528022506329555 -0.000128495864949034 0.00745529406007664 0.000225373374935569 0.0113680893070606 -0.000697089954132637 0.0127149335366102 0.00876820895362851 0.034341513093215 0.000238304681608848 0.0357097999810199 6.795197661796e-05 0.0218862051628784 0.958786757162921 0.00672764168819581 -0.327438160419593 0.00973902314233916 -0.210319353305829 0.0104049542268281
21 6 -0.63110876443376 0.543398484551232 -0.00128806485384349 0.0160327568171448 -0.000674077962341146 0.00908617966459892 0.00166947685621892 0.0127993886400812 -0.00292669730053542 0.0231104178322017 -0.0178164348202415 0.0386433392279179 0.00520391188570879 0.0112249181525344 0.211120760289931 0.0102060271664488 0.616617792864583 0.00788554329679502 0.770778657829861 0.00854079075488941
22 1 -0.274200987116311 0.460010818917144 0.000265601642022758 0.323507921504673 0.000218613557150136 0.189711966857051 0.00039479901686481 0.144494337555458 0.0293439759727242 0.595121316882836 -0.00981939026701766 0.395240276464309 -0.00389750708479959 0.413064366663031 0.99799481796875 0.323138501957547 -0.241043363783033 0.189031009566922 0.0178444977972181 0.143829474189607
22 2 -0.305185521541175 0.468928019106076 -0.00601430835381696 0.353474702504997 -0.00510041642886533 0.215282328723973 -0.00305340990318824 0.163150403196561 0.167752684782757 0.609965246972274 -0.0483635683343601 0.392870386699777 -0.0312454789041443 0.410004935127337 0.958729109505208 0.352685997219573 -0.32344706244109 0.214144656509402 -0.102720797758668 0.160880078712269
22 3 -0.287664837258693 0.477672679039378 0.00141849405295139 0.439588322920621 -0.00139613888576389 0.213530423432414 0.000294617220388021 0.124285921118867 -0.0518626541392795 0.665821047455731 0.00208768676215278 0.346261650334949 -0.0160491663123481 0.350613162863767 0.989051709570313 0.438933601644101 -0.205275548208268 0.212740382112757 0.0353555161918266 0.12219524933426
22 4 -0.634015600138589 0.532022049722643 -0.000822662309895161 0.00841477627413952 0.00251310358604561 0.0140232097339293 0.000819333264344758 0.0178508177061661 -0.00863051869568594 0.0181578599775042 -0.00226755714406304 0.0401541741908418 -0.00260690744946036 0.0280963473029101 0.928455168560988 0.00646111240948083 0.228859677191154 0.00973531434165783 0.305395084303175 0.0132012090342732
22 5 -0.635992094486953 0.529999769322386 0.000304607253942684 0.00629195819226363 0.000672338255530754 0.0149398556521459 0.00110340839274454 0.0134202098120621 0.000159554813239088 0.0732470068203282 0.00240765019188418 0.0290226422993061 -0.00574753658287971 0.021278299471353 1.01074092306548 0.00601009846904458 -0.207405365172371 0.0134754431535307 0.0274020419799851 0.0112118047205175
22 6 -0.632109081483277 0.534082415245892 0.00049128767013635 0.0183995480329846 0.0015080625803411 0.0165485575947737 -0.000823633089053602 0.0132863835868101 0.00705828675532986 0.0394554347905489 -0.008232045932023 0.0311888331673685 0.0259672435129253 0.0345117623409153 0.0402375661235677 0.0121608263615764 0.65125036828342 0.0137639179243707 0.752220832107205 0.0100101000824263
23 1 -0.265296718829829 0.464098141308726 -0.000899312020127118 0.224457244210728 -0.000641854839935117 0.152231087021401 -0.00167659521103824 0.212395865640463 -0.0365518319021345 0.442046582139685 0.00465923770891128 0.966147021179466 0.0094571146790776 0.384886236950709 0.999455976694915 0.224078378427435 -0.14414367002562 0.151450956332936 -0.165187134149232 0.211764731737959
23 2 -0.369581312588007 0.467164879388163 -0.00568382952625613 0.247081505996607 -0.00799685445798713 0.180223966313005 -0.00613870942734375 0.200990693454184 0.127339505680884 0.392983603759342 -0.0168068511272365 0.542709659046739 -0.0526188996441942 0.471027517018874 0.926516825321691 0.245985279458826 -0.204152640686068 0.175303776825867 -0.361448667265411 0.19860793856591
23 3 -0.20246554081645 0.4574307312881 0.00253925381005498 0.340662300997561 0.000486227303492477 0.191057215447945 0.00313667148526042 0.22420720765696 -0.031093243388355 0.510134695274093 -0.00495213766179398 0.931215196159694 0.00399546279489294 0.385337704219306 0.991509640928819 0.339914528181794 -0.0913482794215914 0.18734369178229 -0.153404554275845 0.222684864801998
23 4 -0.632843540612456 0.543059200310429 -0.000870590634300574 0.00544490083444055 0.00196359416202734 0.0128488530169198 0.0014861886690131 0.0200053483348454 -0.0201973825683039 0.0187982861212824 0.00266690374684812 0.0417341637927351 -0.00963318358883058 0.0216965880773901 0.997150582709099 0.00417441744655614 0.1416167803375 0.00893419962890561 0.0578843550289522 0.0147365722233011
23 5 -0.637024168810267 0.531088424136574 6.66789921629366e-05 0.00615517640472048 -0.000319638359316291 0.00883248549752251 -0.000756274249433525 0.0157206682695108 -0.00522367153733132 0.0521959306636262 0.00411442715215074 0.0417607773612365 -0.00205534167009802 0.0204032656243438 0.986311278653493 0.00526970790699056 -0.0995173684695685 0.0081426484744192 -0.2260485639859 0.0130647400781699
23 6 -0.628089473591726 0.551576627950253 -0.000729063383532335 0.0154685643145548 -0.00236934484084245 0.00578055420471171 0.00133816400801823 0.00784133554511117 0.0168469879495419 0.0175045551327696 -0.0138669616618166 0.0332478639831441 0.0109522472029456 0.00997825039034205 0.0580621596218533 0.00912462735525387 0.453567596918403 0.00468218091818497 0.898724145193142 0.0059065646405606
24 1 -0.416975175176002 0.473945996502654 -0.000122607251185345 0.173369344453918 -0.00283577161773653 0.146233780845371 -0.000755922770875539 0.130918794864905 -0.0276791369560937 0.366917891364675 0.00383580612878772 0.394594050165022 0.00480999790343831 0.294573905822097 1.01430011880388 0.173006566774583 -0.099751265826813 0.144992752525762 -0.144756107169456 0.130048039406233
24 2 -0.43583828688532 0.474251576812081 -0.00158572095554555 0.214425034179441 -0.00422746342698623 0.152609663496876 -0.00196254279941075 0.136896397122434 0.119627441872113 0.369679194448213 -0.014264289788223 0.33230557981753 -0.0272209411785858 0.353432007880855 0.97512026979608 0.213386021992035 -0.223370834605151 0.14825563807211 -0.230697992565099 0.134230349651062
24 3 -0.359085991984149 0.472990421003547 0.00227831390532102 0.299441316636735 0.00134543776216477 0.15503496074246 0.00115249856201705 0.145894473895894 -0.0608825992774659 0.496388099870734 0.00907925993384943 0.396502297250698 0.0113483894395028 0.24861218528175 1.01046508301136 0.298686334763098 -0.108763870229751 0.153391653388352 -0.142074405721598 0.144741640982161
24 4 -0.646619496620551 0.526925830839725 -0.000844946286880375 0.0044746992169031 0.00210468368108286 0.00920635166931864 0.00173976376489108 0.0107488290566089 -0.00819724311048368 0.0120513424253895 -0.000304247718649242 0.0188877082805819 -0.0027833479657832 0.0160997236861449 0.985244406008732 0.00389198453345281 0.202185181579733 0.00715584476089877 0.103882249325528 0.0079829129876793
24 5 -0.634194893841734 0.53344655282101 0.000571486425564266 0.00555919068002549 0.00139500511128444 0.0125177139383254 2.81071229506339e-05 0.0155635293925433 -0.000192109370832654 0.0358879506100518 0.0022957252798793 0.027044663800474 -0.00407544925582242 0.0167383701467678 1.01976166680254 0.0051128719718391 -0.125567618818365 0.0103919512831737 -0.0576382634725951 0.0119395488265305
24 6 -0.634203387560794 0.541737906273239 -0.000973787020804905 0.0118206676066413 -0.000114011590823394 0.00461607006880891 0.000353927445508898 0.00777956815946245 0.0137240429077718 0.0168058902229336 -0.00957817188605469 0.0324024928370416 0.011240883063432 0.0110525769217756 0.0806408840326823 0.00742014455855735 0.75544134953342 0.00427384649118771 0.666855741937934 0.00633760807777892
25 1 -0.460842122215599 0.482757503377511 0.000292015385586993 0.132676876214567 -0.000791808649862753 0.144914136002536 -0.000142045032347973 0.104250160459671 0.0124219189608319 0.523174418778638 -0.00349339046467483 0.305131280195338 0.000200971334026605 0.21389610016353 0.999001927037585 0.132071437236196 -0.109891550965103 0.143759418314236 0.179494807669815 0.101761298359176
25 2 -0.48551223324769 0.493089266961923 8.64815500600962e-05 0.176938959869248 -0.00516550642107644 0.134453477387971 -0.00591401988219952 0.129536936374028 0.0858980194822692 0.446671315104531 -0.0158466448487764 0.435543768629918 0.0058819984968512 0.213208360293401 0.991872871754808 0.174485850232752 -0.204476784545385 0.130398787238202 0.0949227853708721 0.12018055691863
25 3 -0.429924410531157 0.48048742191466 0.00283441407404364 0.243875002752261 -0.00203453177822468 0.148554827692378 0.000368416342909483 0.100502541005873 0.0316273511905655 0.620995719599269 -0.01208905139375 0.36687342761903 0.00519699589731681 0.271513235102471 0.995988760479526 0.24296023182827 -0.0563146201631708 0.146289971159362 0.209860130994989 0.0968397308397947
25 4 -0.645307467575153 0.534204894318477 0.000199015835556418 0.00405263053321154 0.00124229487517572 0.0107093709276219 -0.000281714725440865 0.00929512748945172 -0.00776639433204154 0.010487428585751 -0.000208080447641226 0.016407818984651 -0.000466669057989303 0.0154412597016829 0.948133201033654 0.00312924240720427 0.227322462912139 0.00600411540277114 0.158447361305178 0.00661846906257139
25 5 -0.645297950751058 0.528500727750385 9.0250402082992e-05 0.0040275162072336 0.00040973962177386 0.00949449643937134 0.000315369828221199 0.00938448199846331 0.00297049700123606 0.0266410521551826 0.0020099217136288 0.019803560385856 -0.000471026596438978 0.0158399580266176 0.993362847519003 0.00374585261812606 -0.140650573852407 0.00785499739024239 0.192497520125633 0.00684585742797033
25 6 -0.589506698496036 0.545450415711338 -0.0055196531994771 0.0309468947070471 -0.000921155939709975 0.0543883141083633 0.0026026894922149 0.0538726776206147 0.0323865330650111 0.0976883169570014 0.00121868451189148 0.0505213211891048 0.0236280623358345 0.0453209586103265 0.00409376989107449 0.027847727438501 0.63701090406021 0.0732492962913993 0.514339059639341 0.0586479939736807
26 1 -0.392008755561813 0.465080130468016 0.000348004589805455 0.215794116497439 0.000898068456533369 0.149270469865425 -0.000204603757272246 0.122889705819611 0.0250968631922934 0.443297879507467 -0.00442977076982256 0.326792843507268 -0.000542557285116525 0.314718968971549 1.01544022078919 0.215436420866234 -0.114799658944637 0.148481157513547 0.101131142356213 0.122367826299418
26 2 -0.41167278243368 0.480136846789247 -0.00100657406355398 0.27141050432377 -0.00578287271408097 0.164163198622099 -0.00450446375028474 0.110101420011102 0.00297007638579546 0.393323371623625 0.00387346435761364 0.305847028312446 -0.00627898058804088 0.336731132419668 1.00096509833807 0.270525287857623 -0.233586558894075 0.161409728968057 -0.0119875790126506 0.107890580521199
26 3 -0.322473123490661 0.467151493916604 0.0003521545298125 0.382839406998407 0.00236678302841562 0.170576613805205 0.000617083384053125 0.131643959673919 0.0174531794521506 0.583996709413718 -0.0117581637511406 0.405126204407831 -0.00181966372759375 0.325612871824347 1.00564915171875 0.382074333688865 -0.0593772394475156 0.169018437894412 0.146340157944519 0.130671195286027
26 4 -0.642718508921569 0.538163762448172 -0.00398400120259051 0.00799169936040557 0.00524749361931651 0.011846867015611 0.00358841246638722 0.0120169850158947 -0.00963987647940563 0.00951202265694971 -0.0043909801513778 0.0223395708290005 -0.00673703900600789 0.0184414620727279 0.88544221000601 0.00631361447916734 0.24612739964436 0.00735940187507971 0.307020405538862 0.00904294171295709
26 5 -0.644004547265191 0.533694523050013 0.000731848530402027 0.00367036942726512 0.000250362357981419 0.010366252909853 -0.000637609034096073 0.00968198395864605 0.00323874187317525 0.0245270008834557 0.000542164670334565 0.0154779902210168 -0.00383376694465498 0.0143499709005628 1.01922797868454 0.00309789540374987 -0.121832542040752 0.00770939967192844 0.0807248199799409 0.00740550862865809
26 6 -0.640679888089531 0.545536215521252 -0.00122203810483697 0.0113458468322338 -0.0010759953551472 0.00459815173714061 0.00109180788306312 0.00581340056374734 0.0109418445104543 0.0101211546401659 -0.00721646111927529 0.017837669442564 0.0292567790642997 0.0170562177903617 -0.104909050389597 0.00497216767062172 0.81898225599301 0.00345595781877519 0.599474594418174 0.00487454877452599
27 1 -0.377771272094104 0.468490345338959 -0.000149672883608827 0.213100661907851 0.000257155793152412 0.140566723323873 -0.00149137185294682 0.129394091394474 -0.0597289915398026 0.344047981748305 0.0170685330708059 0.361907410896821 0.0141340968396162 0.365283196248048 1.00370603471765 0.212799906785939 -0.168947878267993 0.139825151629478 -0.131046397890392 0.128657173983841
27 2 -0.426267052017458 0.48671284301688 -0.00243288825597426 0.230332207965707 -0.00155107786253983 0.156332742123246 -0.0050287061566299 0.141373104503468 -0.068439899939185 0.38271118061806 0.034523197957091 0.317429538420345 0.0238100485789982 0.404096391352728 0.947137929748775 0.229575650289904 -0.21248506218511 0.15311331276507 -0.300105698559222 0.139527722934781
27 3 -0.312446129792811 0.47435384225082 0.0041151080609375 0.380712489876081 0.00187865207728338 0.155826982362451 -0.00149646042804155 0.139694702282575 -0.136294460337784 0.555773836601046 0.02619848853419 0.398691792821435 0.0293712710093928 0.361542399342705 0.998508945756392 0.379975915103679 -0.146794040740355 0.154634191632124 -0.14464912836977 0.13823339466764
27 4 -0.647329814034974 0.533984958770938 -0.000748992606980601 0.00512894254453977 0.000845081734739665 0.00658869898368912 0.000920238230581138 0.00916579177531565 -0.00980627148723996 0.0117197594785488 -0.00243588283629286 0.0157387851616576 -0.00130896586269194 0.0139519842032889 0.928641131283482 0.00339729472552319 0.231579253960938 0.00440890703336009 0.267037987510045 0.00600100677416809
27 5 -0.644356212162637 0.535052504532977 0.000410339167937539 0.00403354072269024 0.000285816472402539 0.00939162402749874 0.000155861659168105 0.00978628157884006 0.000972796377393164 0.0279084376096347 0.0030847320945248 0.0154084442160054 -0.00648334665858828 0.0112557245225921 1.01882910061523 0.00361897094847399 -0.169925759680078 0.0076978958476635 -0.0108464520287243 0.0074251640435369
27 6 -0.645993647892745 0.539991225164833 -0.000715774459380279 0.00841856814274838 -0.00044510517114584 0.00451193532332102 0.0002008160184178 0.00542909205824446 0.00838708109514896 0.0114195163778314 -0.00968208361351541 0.0140393294131175 0.0143423844917775 0.0126631975319254 -0.0401348220525021 0.00550376693776835 0.584774068549409 0.004131444796338 0.825464206535051 0.0047048422125479
28 1 -0.393787255237739 0.468082416558165 0.000752701339803241 0.231123679433876 0.00076693321725868 0.152424877240309 0.00151723197232639 0.128744857451537 -0.0806734690976128 0.433794832108375 0.0257609634136285 0.386542545995777 0.0131595852212818 0.368923898392147 1.00331490865162 0.230739125109899 -0.210204494235903 0.151436516424383 -0.127744867128284 0.127559953663125
28 2 -0.401092965937606 0.473584351968701 -0.00320866146053462 0.247674578223431 -0.00566801100804075 0.147493415624257 -0.00436260363939798 0.131431888466737 -0.104875886137384 0.420715642304322 0.0431467744525888 0.400600870663003 0.0076958431196538 0.394729068133135 0.936820420481005 0.246812056983024 -0.320416285860769 0.144462353378541 -0.270513313718903 0.128270331181185
28 3 -0.291650876955502 0.46256315184821 0.00331095781681726 0.367165786787299 -0.00256218909384171 0.199297636297267 -9.29366437601902e-05 0.121532780027124 -0.116977051978838 0.639037492557335 0.0367719309682762 0.568976973456395 0.0231428736772079 0.337730058473329 0.996227789402174 0.366531795792964 -0.220106273922137 0.198223838595098 -0.124996057699287 0.120020862501991
28 4 -0.637322526513564 0.523550153103677 -0.000123264144005642 0.00685329936968112 -0.000735519019102691 0.0119995409764899 -0.0010604921564197 0.0144155011987142 -0.0064221281444911 0.0194006670678952 0.00313563108304253 0.0354515814871507 0.000306541261867188 0.0231907428763009 0.977262928927951 0.00639141140760205 -0.0951346759403429 0.00984753949609466 0.126478490834948 0.0117774845675633
28 5 -0.627883524309929 0.519990161399115 4.51944329906052e-05 0.00864811646135582 -6.57518092072785e-05 0.0229695512232991 0.000570912089047864 0.0200881750613255 0.00242029376381448 0.102684495482779 0.000198311946478837 0.0479373057763781 8.16653749469937e-05 0.0382693517908603 1.00655688045886 0.00818567681065311 -0.229354074604134 0.020581123572107 -0.0428700391419244 0.0169268939256172
28 6 -0.640518710327799 0.530976406623764 -0.000342564286266641 0.0115268664369735 0.000201606224096484 0.0110631316160937 -1.22932526335937e-05 0.0108577686175185 0.0106302927827846 0.0407439050220971 -0.0104337201940339 0.0325878150453997 0.00320715394940145 0.0204104207041765 -0.0114023682513672 0.00931460841648125 0.162148862158203 0.00871338056860623 0.00994805870117188 0.00939602825249733
29 1 -0.352894943404783 0.459750416503951 -0.00114907430017659 0.269678452018307 0.000444050024882076 0.156889021579592 0.000553390141995872 0.139193449879474 0.0203363404825678 0.351007106535308 -0.00344072565208137 0.628355096961607 -0.000286608200722288 0.27807316748732 1.01516424041863 0.269218475853946 -0.108657897050593 0.1564390293531 0.0889569869437515 0.137403429211012
29 2 -0.364429747315138 0.485009059372236 -0.00250443714551977 0.298129009054982 -0.00671815837600606 0.151700200325563 -0.00320197319943559 0.200764667903675 0.124663075774083 0.590447809205065 -0.0352114136439254 0.80282633204084 -0.000398766146795281 0.304906157230273 0.990389250589923 0.296809987672386 -0.215496329494786 0.14933574950877 0.0348855260058705 0.193596642788944
29 3 -0.31726279115201 0.466798126904517 0.00320758058274414 0.380704716245152 0.00115232243517708 0.151642940916146 0.00336076483104167 0.142727254354783 -0.0100429886314128 0.62687149247679 -0.00486041562519531 0.468624244231351 -0.00181833192034831 0.33574600205776 1.00969901619466 0.379599283410476 -0.0567924179887012 0.148518694688158 0.0882126300572786 0.13715438469713
29 4 -0.644100724926612 0.54030786087254 -8.15641525372135e-05 0.00442555668297803 0.000266176598533854 0.00801625981429409 -0.00069509552309974 0.00876922549859137 -0.0105736248255046 0.0102513343846895 -0.000560017877873828 0.010941630376972 -0.0125178640810366 0.0161237699285876 0.966153624427083 0.00280215232460194 0.173785008744792 0.00461467707317825 0.275091319674479 0.0052043217200387
29 5 -0.650245278868483 0.536209908171482 8.02273955768029e-05 0.00269589941460357 -6.42174515523317e-05 0.0069787725029355 -0.000116090988365625 0.00658535523455618 6.94343238810337e-05 0.0208611540485196 0.0010083357562506 0.00938697558611428 -0.00158200171385481 0.0102452813532615 1.02497509223558 0.00250086029701296 -0.0404220168176563 0.00591362525704553 0.0254278959450958 0.00576108073932783
29 6 -0.646324698842316 0.547384622922697 0.00200298783249685 0.00654569802367715 -3.0628438827808e-05 0.0034007041354751 -0.00038135441482971 0.00531792511942735 0.00190467512063587 0.00668286297433032 -0.000831667499335156 0.00756038973614466 0.0181812389240459 0.0142999733892284 0.0924597110348732 0.00339260349792625 0.824542284737319 0.00287575017954311 0.574346089662591 0.00402478140660853
30 1 -0.373607524126774 0.458741626903586 -0.000240909416594952 0.21377687740787 -0.00023597005665625 0.142915835473798 0.00319866433296875 0.161196730528146 -0.0188485731354808 0.534702305242782 0.00425411505637019 0.772123337233127 -0.00105158165505288 0.397991194092752 1.01808312405048 0.213386643264873 -0.139655392313875 0.141735552502445 -0.00618352469072837 0.157634453059972
30 2 -0.439370730188029 0.489520080840848 -0.00126948207129808 0.212441461879765 -0.00429734234890625 0.150814810248174 -0.00541423122460337 0.187349269742007 0.0248711141269712 0.442469036206698 -0.00163497020100565 0.703187821950686 -0.00215225612540865 0.383947525358467 0.9934423609375 0.210748566765783 -0.212603276313526 0.144250961818697 -0.0326963032998942 0.174421446363521
30 3 -0.358790607945901 0.464525701807421 0.00115711926984627 0.307551592370185 -0.000157477854823589 0.167906047869512 0.00275157015383064 0.143788708716764 -0.0483540124795287 0.640938609329952 0.00227018435255796 0.549055369022864 0.00143575625289818 0.343373220921677 1.01437715564516 0.306478452499796 -0.108652484177335 0.164470071529226 0.0255376209113231 0.137999022665928
30 4 -0.646017901904583 0.532835681402282 -0.0019041208092849 0.0067396035766143 0.00476826321738785 0.0123494420381658 0.00290441717504083 0.0119001580375133 -0.00842381661672383 0.0120330379196233 -6.39235492666327e-06 0.0200179508389371 -0.00714010054894555 0.0239555843564671 0.917591489667339 0.00595842767627334 0.137267809684753 0.0102334987234861 0.336190003112399 0.00894722050919319
30 5 -0.630635453342216 0.527699114956464 -9.54288057907839e-05 0.00870959178073545 6.38676100415783e-05 0.0202422007641691 -0.000148180825106462 0.0186986153811562 6.29407808792371e-05 0.078845015401059 0.00329859679348814 0.0474021396405918 -0.00269153165282548 0.0356821615708846 1.02059009465042 0.00862017047908346 -0.082050871446544 0.0174635061422034 0.018211943618419 0.0158289322488976
30 6 -0.642625296795821 0.529010124054845 0.000712655419118304 0.00909847172368132 -0.00121228322621984 0.00955725969227243 0.00153591426932232 0.00895259491193439 0.000921674406119754 0.0246334915435502 -0.000816406783695312 0.0280068007165641 0.00332580912756205 0.0172562310671206 0.0926206399243973 0.00835270009001775 0.748580899921875 0.00905730650141101 0.665698158147321 0.00831817632222247
